File: 188_XRD.txt
Angle	Intensity
25.008	1.28E-02
25.042	-6.17E-03
25.076	-3.24E-03
25.11	4.81E-03
25.144	4.81E-03
25.178	-2.37E-02
25.212	-1.28E-02
25.246	2.31E-02
25.28	-1.28E-02
25.314	-1.08E-03
25.348	-3.29E-03
25.382	1.64E-02
25.416	1.50E-02
25.45	8.35E-03
25.484	4.66E-03
25.518	-4.15E-03
25.552	-2.32E-02
25.586	-5.68E-03
25.62	-5.00E-03
25.654	1.54E-03
25.688	4.42E-03
25.722	7.06E-04
25.756	-1.40E-02
25.79	-1.92E-02
25.824	-2.41E-03
25.858	-1.64E-02
25.892	1.13E-02
25.926	2.83E-04
25.96	-1.27E-03
25.994	1.33E-02
26.028	-1.46E-03
26.062	-3.96E-02
26.096	-6.80E-03
26.13	-3.32E-04
26.164	-2.09E-02
26.198	-7.90E-03
26.232	-1.54E-02
26.266	1.74E-02
26.3	1.65E-02
26.334	-2.46E-02
26.368	4.33E-02
26.402	4.31E-03
26.436	-4.65E-03
26.47	-2.39E-02
26.504	5.19E-03
26.538	5.70E-03
26.572	2.89E-02
26.606	1.58E-03
26.64	2.03E-02
26.674	2.53E-03
26.708	-1.09E-02
26.742	-9.49E-04
26.776	-6.37E-03
26.81	-8.25E-04
26.844	-1.07E-02
26.878	1.39E-02
26.912	2.74E-02
26.946	3.24E-06
26.98	-1.72E-02
27.014	3.80E-02
27.048	1.05E-02
27.082	-3.03E-03
27.116	8.24E-03
27.15	3.12E-02
27.184	2.49E-02
27.218	-4.07E-03
27.252	-1.19E-02
27.286	-6.23E-04
27.32	1.43E-02
27.354	-5.25E-03
27.388	1.56E-03
27.422	1.20E-02
27.456	4.95E-03
27.49	-3.61E-03
27.524	-7.04E-03
27.558	7.08E-03
27.592	1.53E-02
27.626	7.52E-03
27.66	1.07E-02
27.694	-1.53E-03
27.728	2.87E-02
27.762	2.01E-02
27.796	1.36E-03
27.83	4.53E-03
27.864	6.25E-03
27.898	4.16E-02
27.932	3.83E-03
27.966	1.73E-02
28	2.85E-02
28.034	2.22E-02
28.068	3.57E-02
28.102	2.50E-02
28.136	5.89E-02
28.17	8.34E-02
28.204	5.00E-02
28.238	7.67E-02
28.272	7.48E-02
28.306	1.10E-01
28.34	9.59E-02
28.374	7.65E-02
28.408	7.25E-02
28.442	8.89E-02
28.476	6.88E-02
28.51	9.92E-02
28.544	7.17E-02
28.578	6.70E-02
28.612	4.84E-02
28.646	3.19E-02
28.68	4.55E-02
28.714	3.27E-02
28.748	2.72E-02
28.782	4.89E-02
28.816	1.42E-02
28.85	1.31E-02
28.884	1.21E-02
28.918	3.71E-03
28.952	5.46E-02
28.986	1.92E-02
29.02	5.73E-03
29.054	1.49E-02
29.088	-7.06E-04
29.122	2.24E-02
29.156	2.29E-02
29.19	2.70E-02
29.224	8.41E-03
29.258	2.13E-02
29.292	1.52E-02
29.326	1.78E-02
29.36	2.56E-02
29.394	6.35E-03
29.428	1.78E-02
29.462	1.17E-02
29.496	1.66E-02
29.53	3.88E-03
29.564	3.22E-02
29.598	1.14E-02
29.632	1.34E-02
29.666	-7.39E-04
29.7	1.22E-02
29.734	2.66E-02
29.768	-1.31E-02
29.802	3.42E-02
29.836	3.11E-04
29.87	2.42E-02
29.904	1.82E-02
29.938	1.72E-02
29.972	-1.15E-02
30.006	2.70E-02
30.04	8.52E-03
30.074	2.00E-02
30.108	5.92E-03
30.142	4.01E-02
30.176	1.87E-02
30.21	4.04E-02
30.244	5.11E-03
30.278	1.00E-02
30.312	2.89E-02
30.346	2.28E-02
30.38	1.75E-02
30.414	2.83E-02
30.448	1.42E-02
30.482	2.86E-02
30.516	3.36E-02
30.55	3.49E-02
30.584	2.37E-02
30.618	1.26E-02
30.652	2.48E-02
30.686	2.10E-02
30.72	1.79E-02
30.754	2.43E-02
30.788	3.22E-02
30.822	2.32E-02
30.856	1.28E-02
30.89	2.95E-02
30.924	3.37E-02
30.958	2.48E-02
30.992	2.10E-02
31.026	3.18E-02
31.06	3.75E-02
31.094	3.44E-02
31.128	3.57E-02
31.162	3.92E-02
31.196	6.98E-02
31.23	4.55E-02
31.264	5.27E-02
31.298	3.94E-02
31.332	5.75E-02
31.366	6.54E-02
31.4	5.50E-02
31.434	2.78E-02
31.468	3.72E-02
31.502	2.83E-02
31.536	2.59E-02
31.57	2.21E-02
31.604	1.03E-02
31.638	1.75E-02
31.672	2.25E-02
31.706	1.50E-02
31.74	3.24E-02
31.774	2.13E-02
31.808	1.90E-02
31.842	1.01E-02
31.876	2.39E-02
31.91	-4.09E-04
31.944	1.99E-02
31.978	3.52E-02
32.012	2.04E-02
32.046	2.17E-02
32.08	6.25E-03
32.114	2.22E-02
32.148	-4.25E-03
32.182	-8.77E-03
32.216	2.47E-02
32.25	2.02E-02
32.284	2.16E-02
32.318	1.12E-02
32.352	1.54E-03
32.386	2.63E-02
32.42	1.81E-02
32.454	1.65E-02
32.488	1.05E-02
32.522	1.92E-02
32.556	2.12E-02
32.59	2.84E-02
32.624	1.22E-02
32.658	2.52E-02
32.692	3.31E-02
32.726	1.69E-02
32.76	2.77E-02
32.794	2.70E-03
32.828	6.69E-02
32.862	2.51E-02
32.896	5.49E-02
32.93	3.43E-02
32.964	5.17E-02
32.998	4.50E-02
33.032	3.68E-02
33.066	3.88E-02
33.1	3.65E-02
33.134	3.85E-02
33.168	2.00E-02
33.202	1.99E-02
33.236	2.56E-02
33.27	2.32E-02
33.304	2.45E-02
33.338	3.68E-02
33.372	4.42E-03
33.406	2.69E-02
33.44	2.89E-02
33.474	2.44E-02
33.508	3.66E-02
33.542	1.30E-02
33.576	1.94E-02
33.61	1.63E-02
33.644	3.95E-02
33.678	2.32E-02
33.712	9.11E-03
33.746	3.23E-02
33.78	4.45E-02
33.814	1.43E-02
33.848	2.95E-02
33.882	1.54E-02
33.916	2.61E-02
33.95	2.51E-02
33.984	1.47E-02
34.018	1.95E-02
34.052	9.79E-03
34.086	2.05E-02
34.12	2.83E-02
34.154	1.93E-02
34.188	1.90E-02
34.222	2.46E-02
34.256	2.51E-02
34.29	2.26E-02
34.324	1.50E-02
34.358	2.20E-02
34.392	2.32E-02
34.426	1.71E-02
34.46	1.46E-02
34.494	1.81E-03
34.528	2.05E-02
34.562	2.68E-02
34.596	1.11E-02
34.63	3.78E-02
34.664	2.21E-02
34.698	1.59E-02
34.732	8.99E-03
34.766	3.20E-02
34.8	9.58E-04
34.834	2.03E-02
34.868	3.38E-02
34.902	1.44E-02
34.936	2.94E-02
34.97	2.83E-02
35.004	3.59E-02
35.038	2.31E-02
35.072	3.36E-02
35.106	1.42E-02
35.14	1.45E-02
35.174	3.89E-02
35.208	3.48E-02
35.242	1.75E-02
35.276	2.58E-02
35.31	2.31E-02
35.344	1.16E-02
35.378	3.09E-02
35.412	3.33E-02
35.446	2.33E-02
35.48	1.91E-02
35.514	2.37E-02
35.548	1.73E-02
35.582	3.13E-02
35.616	1.91E-02
35.65	2.21E-02
35.684	2.59E-02
35.718	1.80E-02
35.752	1.45E-02
35.786	1.17E-02
35.82	-4.32E-03
35.854	1.26E-02
35.888	9.01E-03
35.922	1.27E-02
35.956	1.72E-02
35.99	1.43E-02
36.024	9.93E-03
36.058	2.82E-02
36.092	9.23E-03
36.126	1.87E-02
36.16	1.07E-02
36.194	1.28E-02
36.228	1.28E-02
36.262	2.81E-02
36.296	2.65E-02
36.33	2.57E-02
36.364	2.64E-02
36.398	1.16E-02
36.432	2.47E-02
36.466	2.82E-02
36.5	2.66E-02
36.534	1.83E-02
36.568	1.09E-02
36.602	2.16E-02
36.636	3.46E-02
36.67	1.46E-02
36.704	1.80E-02
36.738	3.82E-02
36.772	2.77E-02
36.806	2.16E-02
36.84	1.84E-02
36.874	1.44E-02
36.908	1.48E-02
36.942	4.91E-03
36.976	1.33E-02
37.01	4.16E-03
37.044	2.50E-02
37.078	5.53E-03
37.112	6.95E-04
37.146	1.93E-02
37.18	1.00E-02
37.214	2.41E-02
37.248	1.34E-02
37.282	1.43E-02
37.316	1.16E-02
37.35	1.03E-02
37.384	4.60E-03
37.418	1.28E-02
37.452	2.64E-03
37.486	1.37E-02
37.52	1.30E-02
37.554	1.68E-02
37.588	8.00E-03
37.622	1.39E-02
37.656	2.19E-02
37.69	1.38E-02
37.724	6.48E-03
37.758	1.08E-02
37.792	1.58E-02
37.826	4.74E-03
37.86	1.34E-02
37.894	1.47E-02
37.928	1.75E-02
37.962	3.12E-02
37.996	3.46E-02
38.03	3.80E-02
38.064	5.82E-02
38.098	5.43E-02
38.132	9.05E-02
38.166	9.24E-02
38.2	1.27E-01
38.234	1.34E-01
38.268	1.51E-01
38.302	1.71E-01
38.336	1.80E-01
38.37	1.91E-01
38.404	1.87E-01
38.438	1.94E-01
38.472	2.19E-01
38.506	1.86E-01
38.54	1.90E-01
38.574	1.72E-01
38.608	1.66E-01
38.642	1.56E-01
38.676	1.43E-01
38.71	1.13E-01
38.744	9.49E-02
38.778	7.15E-02
38.812	4.43E-02
38.846	4.57E-02
38.88	3.10E-02
38.914	2.06E-02
38.948	5.09E-03
38.982	2.02E-02
39.016	2.00E-02
39.05	1.54E-02
39.084	3.43E-03
39.118	2.73E-02
39.152	1.35E-03
39.186	1.49E-02
39.22	1.60E-02
39.254	1.41E-02
39.288	3.71E-02
39.322	3.30E-02
39.356	2.88E-02
39.39	3.71E-02
39.424	4.09E-02
39.458	3.60E-02
39.492	6.39E-02
39.526	4.43E-02
39.56	5.40E-02
39.594	5.42E-02
39.628	6.54E-02
39.662	5.97E-02
39.696	8.92E-02
39.73	1.02E-01
39.764	1.00E-01
39.798	1.12E-01
39.832	1.14E-01
39.866	1.22E-01
39.9	1.49E-01
39.934	1.45E-01
39.968	1.32E-01
40.002	1.48E-01
40.036	1.47E-01
40.07	1.42E-01
40.104	1.57E-01
40.138	1.59E-01
40.172	1.42E-01
40.206	1.43E-01
40.24	1.75E-01
40.274	1.49E-01
40.308	1.36E-01
40.342	1.68E-01
40.376	1.26E-01
40.41	1.13E-01
40.444	1.17E-01
40.478	9.70E-02
40.512	1.03E-01
40.546	7.35E-02
40.58	9.82E-02
40.614	6.53E-02
40.648	6.11E-02
40.682	6.46E-02
40.716	4.04E-02
40.75	3.56E-02
40.784	3.55E-02
40.818	7.99E-03
40.852	1.60E-02
40.886	1.05E-02
40.92	-9.82E-03
40.954	3.10E-02
40.988	5.70E-04
41.022	-1.92E-02
41.056	-1.97E-02
41.09	-1.19E-02
41.124	-1.34E-02
41.158	-1.42E-02
41.192	-1.44E-02
41.226	-1.38E-02
41.26	-1.13E-02
41.294	-2.28E-02
41.328	-7.45E-03
41.362	-1.79E-03
41.396	-6.57E-03
41.43	7.49E-03
41.464	1.85E-02
41.498	5.11E-03
41.532	2.67E-02
41.566	1.31E-02
41.6	5.41E-02
41.634	9.21E-02
41.668	1.15E-01
41.702	3.47E-01
41.736	4.57E+00
41.77	6.83E+01
41.804	1.10E+02
41.838	1.13E+01
41.872	3.91E-01
41.906	3.47E-01
41.94	2.10E-01
41.974	8.22E-02
42.008	3.87E-02
42.042	2.43E-02
42.076	3.92E-02
42.11	2.99E-02
42.144	1.53E-02
42.178	1.76E-02
42.212	3.15E-02
42.246	2.12E-02
42.28	1.01E-02
42.314	1.94E-03
42.348	5.39E-03
42.382	1.69E-02
42.416	2.17E-02
42.45	1.55E-02
42.484	9.29E-03
42.518	1.33E-02
42.552	1.21E-02
42.586	1.82E-02
42.62	5.28E-03
42.654	2.16E-02
42.688	2.83E-02
42.722	2.04E-02
42.756	3.51E-02
42.79	1.76E-02
42.824	1.47E-02
42.858	3.74E-02
42.892	6.68E-03
42.926	1.61E-02
42.96	2.70E-02
42.994	6.48E-03
43.028	3.05E-02
43.062	1.06E-02
43.096	1.12E-02
43.13	1.32E-02
43.164	7.85E-03
43.198	2.15E-02
43.232	1.91E-02
43.266	1.51E-02
43.3	2.66E-02
43.334	1.23E-02
43.368	2.01E-02
43.402	1.97E-02
43.436	1.35E-02
43.47	7.28E-03
43.504	2.37E-02
43.538	2.33E-02
43.572	3.11E-03
43.606	1.15E-02
43.64	2.63E-02
43.674	1.12E-02
43.708	1.22E-02
43.742	1.46E-02
43.776	-2.74E-03
43.81	2.89E-02
43.844	1.67E-02
43.878	-7.33E-04
43.912	2.79E-02
43.946	6.16E-03
43.98	2.60E-02
44.014	1.44E-02
44.048	6.39E-04
44.082	2.12E-02
44.116	7.38E-03
44.15	9.64E-03
44.184	8.97E-03
44.218	9.01E-03
44.252	1.56E-02
44.286	-1.92E-03
44.32	2.00E-02
44.354	1.42E-02
44.388	1.13E-02
44.422	2.30E-02
44.456	1.49E-02
44.49	2.23E-02
44.524	6.89E-03
44.558	1.27E-02
44.592	3.97E-03
44.626	1.71E-02
44.66	8.36E-03
44.694	-4.14E-04
44.728	1.42E-02
44.762	1.64E-02
44.796	2.37E-02
44.83	9.10E-03
44.864	1.06E-02
44.898	2.53E-03
44.932	2.01E-02
44.966	2.45E-02
45	2.08E-02
45.034	6.20E-03
45.068	1.13E-02
45.102	1.57E-02
45.136	6.94E-03
45.17	1.13E-02
45.204	5.49E-03
45.238	1.79E-02
45.272	1.65E-02
45.306	1.43E-02
45.34	1.21E-02
45.374	1.50E-02
45.408	9.18E-03
45.442	1.21E-02
45.476	-1.05E-03
45.51	4.08E-03
45.544	1.94E-02
45.578	-3.95E-03
45.612	8.49E-03
45.646	-4.67E-03
45.68	1.66E-02
45.714	-5.38E-03
45.748	4.86E-03
45.782	-5.37E-03
45.816	7.81E-03
45.85	4.16E-03
45.884	1.29E-02
45.918	7.10E-03
45.952	1.08E-02
45.986	1.15E-02
46.02	5.67E-03
46.054	7.87E-03
46.088	8.61E-03
46.122	1.37E-02
46.156	6.44E-03
46.19	5.72E-03
46.224	1.38E-02
46.258	1.82E-02
46.292	-1.57E-03
46.326	1.82E-02
46.36	1.38E-02
46.394	8.71E-03
46.428	5.79E-03
46.462	8.00E-03
46.496	2.04E-02
46.53	2.19E-02
46.564	2.34E-02
46.598	7.32E-03
46.632	-4.37E-03
46.666	5.88E-03
46.7	9.55E-03
46.734	1.40E-02
46.768	1.03E-02
46.802	1.54E-02
46.836	1.62E-02
46.87	1.77E-02
46.904	2.28E-02
46.938	2.35E-02
46.972	1.55E-02
47.006	2.87E-02
47.04	2.65E-02
47.074	2.58E-02
47.108	2.87E-02
47.142	3.17E-02
47.176	3.61E-02
47.21	3.54E-02
47.244	3.98E-02
47.278	3.83E-02
47.312	4.78E-02
47.346	5.23E-02
47.38	4.20E-02
47.414	4.13E-02
47.448	4.13E-02
47.482	2.96E-02
47.516	2.75E-02
47.55	2.31E-02
47.584	3.04E-02
47.618	2.53E-02
47.652	2.02E-02
47.686	1.22E-02
47.72	1.37E-02
47.754	1.88E-02
47.788	4.94E-03
47.822	9.34E-03
47.856	2.18E-02
47.89	1.82E-02
47.924	2.82E-03
47.958	1.23E-02
47.992	1.24E-02
48.026	1.16E-02
48.06	1.61E-02
48.094	8.76E-03
48.128	-7.27E-04
48.162	9.53E-03
48.196	6.63E-03
48.23	2.26E-03
48.264	4.47E-03
48.298	1.03E-02
48.332	5.24E-03
48.366	9.65E-03
48.4	6.75E-03
48.434	9.69E-03
48.468	2.04E-04
48.502	2.42E-03
48.536	1.56E-02
48.57	2.07E-02
48.604	3.21E-03
48.638	3.97E-03
48.672	-3.33E-03
48.706	1.28E-02
48.74	1.57E-02
48.774	4.78E-03
48.808	-8.36E-03
48.842	1.07E-02
48.876	1.51E-02
48.91	1.29E-02
48.944	4.16E-03
48.978	3.45E-03
49.012	5.67E-03
49.046	-9.67E-03
49.08	-8.73E-04
49.114	6.46E-03
49.148	7.22E-03
49.182	9.43E-03
49.216	2.63E-02
49.25	6.55E-03
49.284	5.11E-03
49.318	3.67E-03
49.352	1.17E-02
49.386	5.18E-03
49.42	-6.48E-04
49.454	3.03E-03
49.488	1.26E-02
49.522	7.47E-03
49.556	7.49E-03
49.59	9.29E-04
49.624	1.19E-02
49.658	1.27E-02
49.692	1.34E-02
49.726	1.75E-03
49.76	5.43E-03
49.794	3.26E-03
49.828	1.06E-02
49.862	4.77E-03
49.896	-1.79E-03
49.93	4.82E-03
49.964	6.30E-03
49.998	5.60E-03
50.032	4.89E-03
50.066	1.08E-02
50.1	6.40E-03
50.134	4.96E-03
50.168	5.92E-04
50.202	1.23E-02
50.236	2.10E-03
50.27	3.59E-03
50.304	8.73E-03
50.338	7.29E-03
50.372	-2.19E-03
50.406	-8.75E-03
50.44	5.90E-03
50.474	1.25E-02
50.508	-3.56E-03
50.542	8.16E-03
50.576	1.18E-02
50.61	1.63E-03
50.644	1.12E-02
50.678	1.19E-02
50.712	2.43E-03
50.746	7.57E-03
50.78	4.67E-03
50.814	-6.28E-03
50.848	-3.33E-03
50.882	1.08E-03
50.916	1.21E-02
50.95	7.71E-03
50.984	6.27E-03
51.018	4.83E-03
51.052	1.51E-02
51.086	-6.10E-03
51.12	-3.15E-03
51.154	1.08E-02
51.188	5.53E-04
51.222	8.62E-03
51.256	1.08E-02
51.29	1.23E-02
51.324	5.03E-03
51.358	1.31E-02
51.392	-4.48E-05
51.426	2.05E-02
51.46	5.12E-03
51.494	7.34E-03
51.528	7.74E-04
51.562	-1.40E-03
51.596	4.47E-03
51.63	8.88E-03
51.664	4.52E-03
51.698	3.81E-03
51.732	6.75E-03
51.766	1.26E-02
51.8	8.26E-03
51.834	1.63E-02
51.868	6.11E-03
51.902	-4.54E-04
51.936	-9.94E-03
51.97	1.78E-03
52.004	-3.32E-03
52.038	4.75E-03
52.072	6.96E-03
52.106	1.43E-02
52.14	-3.11E-04
52.174	2.63E-03
52.208	-5.39E-03
52.242	7.79E-03
52.276	1.22E-02
52.31	-3.14E-03
52.344	9.31E-03
52.378	1.15E-02
52.412	1.23E-02
52.446	2.79E-03
52.48	4.27E-03
52.514	1.53E-02
52.548	1.24E-02
52.582	1.09E-02
52.616	-3.70E-03
52.65	1.02E-02
52.684	6.58E-03
52.718	6.59E-03
52.752	1.17E-02
52.786	1.32E-02
52.82	1.32E-02
52.854	1.25E-02
52.888	8.88E-03
52.922	1.55E-02
52.956	1.77E-02
52.99	6.00E-03
53.024	3.09E-03
53.058	4.57E-03
53.092	1.12E-02
53.126	-1.98E-03
53.16	5.35E-03
53.194	2.07E-02
53.228	7.58E-03
53.262	6.13E-03
53.296	1.20E-02
53.33	8.35E-03
53.364	1.06E-02
53.398	7.65E-03
53.432	-1.11E-03
53.466	2.01E-02
53.5	6.23E-03
53.534	3.97E-04
53.568	6.26E-03
53.602	2.60E-02
53.636	-7.61E-03
53.67	1.95E-02
53.704	7.05E-03
53.738	1.36E-02
53.772	1.73E-02
53.806	1.07E-02
53.84	1.15E-02
53.874	2.10E-02
53.908	1.66E-02
53.942	9.33E-03
53.976	1.15E-02
54.01	-1.52E-04
54.044	2.05E-03
54.078	7.19E-03
54.112	5.00E-03
54.146	6.48E-03
54.18	1.01E-02
54.214	6.50E-03
54.248	5.78E-03
54.282	7.98E-03
54.316	7.99E-03
54.35	1.31E-02
54.384	2.16E-03
54.418	1.46E-02
54.452	2.05E-02
54.486	6.58E-03
54.52	2.49E-02
54.554	-2.18E-03
54.588	1.03E-02
54.622	5.88E-03
54.656	8.08E-03
54.69	8.09E-03
54.724	1.03E-02
54.758	1.10E-02
54.792	1.53E-03
54.826	4.47E-03
54.86	8.13E-03
54.894	1.40E-02
54.928	1.55E-02
54.962	1.40E-02
54.996	1.11E-02
55.03	1.84E-02
55.064	1.18E-02
55.098	1.40E-02
55.132	1.92E-02
55.166	2.14E-02
55.2	1.26E-02
55.234	2.21E-02
55.268	1.99E-02
55.302	1.04E-02
55.336	1.41E-02
55.37	-5.61E-04
55.404	1.41E-02
55.438	2.21E-02
55.472	1.48E-02
55.506	8.96E-03
55.54	2.21E-02
55.574	1.99E-02
55.608	1.04E-02
55.642	2.87E-02
55.676	2.29E-02
55.71	2.07E-02
55.744	6.06E-03
55.778	4.60E-03
55.812	2.58E-02
55.846	2.14E-02
55.88	2.22E-02
55.914	2.51E-02
55.948	3.82E-02
55.982	3.82E-02
56.016	4.26E-02
56.05	4.19E-02
56.084	4.04E-02
56.118	3.75E-02
56.152	3.53E-02
56.186	4.26E-02
56.22	4.41E-02
56.254	3.82E-02
56.288	3.90E-02
56.322	3.90E-02
56.356	4.12E-02
56.39	3.75E-02
56.424	4.04E-02
56.458	2.51E-02
56.492	1.70E-02
56.526	1.92E-02
56.56	3.46E-02
56.594	1.85E-02
56.628	1.68E-03
56.662	3.90E-02
56.696	1.48E-02
56.73	2.07E-02
56.764	1.05E-02
56.798	2.29E-02
56.832	1.56E-02
56.866	1.48E-02
56.9	2.00E-02
56.934	1.92E-02
56.968	2.58E-02
57.002	1.19E-02
57.036	2.36E-02
57.07	2.51E-02
57.104	1.49E-02
57.138	2.29E-02
57.172	1.85E-02
57.206	1.78E-02
57.24	1.70E-02
57.274	1.12E-02
57.308	1.41E-02
57.342	1.63E-02
57.376	1.41E-02
57.41	1.27E-02
57.444	8.27E-03
57.478	1.49E-02
57.512	1.85E-02
57.546	1.71E-02
57.58	2.36E-02
57.614	2.07E-02
57.648	2.00E-02
57.682	8.28E-03
57.716	2.44E-02
57.75	1.78E-02
57.784	1.71E-02
57.818	2.36E-02
57.852	1.05E-02
57.886	1.63E-02
57.92	1.63E-02
57.954	1.93E-02
57.988	1.78E-02
58.022	9.75E-03
58.056	2.07E-02
58.09	1.27E-02
58.124	2.22E-02
58.158	1.63E-02
58.192	1.12E-02
58.226	2.00E-02
58.26	2.51E-02
58.294	2.88E-02
58.328	1.63E-02
58.362	1.20E-02
58.396	1.93E-02
58.43	1.27E-02
58.464	2.22E-02
58.498	1.78E-02
58.532	2.44E-02
58.566	1.78E-02
58.6	3.54E-02
58.634	2.66E-02
58.668	2.95E-02
58.702	2.95E-02
58.736	3.98E-02
58.77	3.83E-02
58.804	4.78E-02
58.838	5.73E-02
58.872	4.93E-02
58.906	5.15E-02
58.94	5.66E-02
58.974	5.59E-02
59.008	6.61E-02
59.042	6.76E-02
59.076	7.34E-02
59.11	7.27E-02
59.144	5.52E-02
59.178	5.96E-02
59.212	5.66E-02
59.246	7.05E-02
59.28	6.98E-02
59.314	4.86E-02
59.348	5.37E-02
59.382	4.64E-02
59.416	4.13E-02
59.45	4.79E-02
59.484	3.33E-02
59.518	2.81E-02
59.552	2.45E-02
59.586	2.82E-02
59.62	1.87E-02
59.654	2.16E-02
59.688	2.74E-02
59.722	2.23E-02
59.756	1.72E-02
59.79	1.43E-02
59.824	1.65E-02
59.858	1.94E-02
59.892	2.09E-02
59.926	1.72E-02
59.96	2.09E-02
59.994	1.94E-02
60.028	1.28E-02
60.062	1.36E-02
60.096	1.36E-02
60.13	1.14E-02
60.164	9.19E-03
60.198	1.94E-02
60.232	2.53E-02
60.266	1.50E-02
60.3	1.36E-02
60.334	2.53E-02
60.368	2.53E-02
60.402	1.36E-02
60.436	4.82E-03
60.47	2.09E-02
60.504	8.48E-03
60.538	4.33E-04
60.572	1.36E-02
60.606	1.95E-02
60.64	2.38E-02
60.674	1.21E-02
60.708	1.43E-02
60.742	1.51E-02
60.776	1.43E-02
60.81	9.95E-03
60.844	9.95E-03
60.878	1.36E-02
60.912	1.87E-02
60.946	-1.01E-03
60.98	8.49E-03
61.014	6.30E-03
61.048	1.14E-02
61.082	1.29E-02
61.116	1.07E-02
61.15	7.04E-03
61.184	5.57E-03
61.218	1.73E-02
61.252	1.80E-02
61.286	1.22E-02
61.32	4.57E-04
61.354	1.92E-03
61.388	1.73E-02
61.422	1.65E-02
61.456	7.04E-03
61.49	1.14E-02
61.524	1.22E-02
61.558	4.12E-03
61.592	1.44E-02
61.626	-8.31E-03
61.66	-1.00E-03
61.694	1.19E-03
61.728	6.31E-03
61.762	7.78E-03
61.796	1.36E-02
61.83	4.12E-03
61.864	4.12E-03
61.898	1.29E-02
61.932	1.07E-02
61.966	2.66E-03
62	1.07E-02
62.034	3.39E-03
62.068	2.66E-03
62.102	9.97E-03
62.136	1.14E-02
62.17	4.86E-03
62.204	8.51E-03
62.238	4.12E-03
62.272	1.58E-02
62.306	1.29E-02
62.34	-9.95E-04
62.374	2.39E-02
62.408	9.98E-03
62.442	4.68E-04
62.476	7.05E-03
62.51	1.44E-02
62.544	9.98E-03
62.578	1.07E-02
62.612	-9.95E-04
62.646	1.22E-02
62.68	6.32E-03
62.714	7.78E-03
62.748	1.22E-02
62.782	1.44E-02
62.816	1.14E-02
62.85	-3.92E-03
62.884	8.51E-03
62.918	7.78E-03
62.952	5.59E-03
62.986	4.86E-03
63.02	1.22E-02
63.054	1.51E-02
63.088	6.32E-03
63.122	4.65E-04
63.156	1.14E-02
63.19	7.05E-03
63.224	1.66E-02
63.258	-5.39E-03
63.292	8.51E-03
63.326	1.29E-02
63.36	-4.66E-03
63.394	1.80E-02
63.428	1.29E-02
63.462	-3.20E-03
63.496	1.51E-02
63.53	2.02E-02
63.564	3.38E-03
63.598	2.65E-03
63.632	7.03E-03
63.666	7.03E-03
63.7	7.03E-03
63.734	-2.86E-04
63.768	1.58E-02
63.802	7.76E-03
63.836	7.02E-03
63.87	4.83E-03
63.904	7.75E-03
63.938	4.09E-03
63.972	9.94E-03
64.006	1.80E-02
64.04	7.74E-03
64.074	1.07E-02
64.108	8.47E-03
64.142	5.54E-03
64.176	1.88E-03
64.21	8.46E-03
64.244	1.43E-02
64.278	1.58E-02
64.312	-8.37E-03
64.346	6.98E-03
64.38	1.14E-02
64.414	6.25E-03
64.448	2.23E-02
64.482	5.51E-03
64.516	1.50E-02
64.55	1.06E-02
64.584	3.40E-02
64.618	3.18E-02
64.652	2.30E-02
64.686	1.79E-02
64.72	4.75E-03
64.754	1.64E-02
64.788	2.52E-02
64.822	1.72E-02
64.856	3.11E-02
64.89	1.57E-02
64.924	1.64E-02
64.958	3.03E-02
64.992	2.45E-02
65.026	2.08E-02
65.06	2.74E-02
65.094	3.25E-02
65.128	2.00E-02
65.162	3.25E-02
65.196	1.49E-02
65.23	2.37E-02
65.264	1.12E-02
65.298	1.93E-02
65.332	2.44E-02
65.366	7.55E-03
65.4	1.49E-02
65.434	2.44E-02
65.468	1.41E-02
65.502	1.12E-02
65.536	1.48E-02
65.57	1.48E-02
65.604	1.33E-02
65.638	4.56E-03
65.672	1.33E-02
65.706	1.55E-02
65.74	8.91E-03
65.774	2.21E-02
65.808	6.70E-03
65.842	1.11E-02
65.876	1.03E-02
65.91	1.54E-02
65.944	1.25E-02
65.978	7.37E-03
66.012	-6.87E-04
66.046	1.03E-02
66.08	1.46E-02
66.114	-2.19E-03
66.148	-1.47E-03
66.182	2.91E-03
66.216	5.09E-03
66.25	1.53E-02
66.284	7.25E-03
66.318	5.78E-03
66.352	1.02E-02
66.386	7.21E-03
66.42	1.52E-02
66.454	2.07E-03
66.488	1.01E-02
66.522	7.89E-03
66.556	1.15E-02
66.59	7.87E-03
66.624	1.00E-02
66.658	-9.37E-04
66.692	1.37E-02
66.726	1.37E-02
66.76	4.15E-03
66.794	6.33E-03
66.828	-6.12E-03
66.862	1.36E-02
66.896	1.90E-03
66.93	7.74E-03
66.964	4.08E-03
66.998	5.53E-03
67.032	-2.53E-03
67.066	1.87E-02
67.1	7.69E-03
67.134	4.03E-03
67.168	-4.76E-03
67.202	1.13E-02
67.236	6.19E-03
67.27	7.65E-03
67.304	-8.45E-03
67.338	1.20E-02
67.372	5.43E-03
67.406	5.42E-03
67.44	9.07E-03
67.474	-4.84E-03
67.508	-1.19E-03
67.542	1.20E-02
67.576	7.58E-03
67.61	9.03E-03
67.644	3.18E-03
67.678	6.83E-03
67.712	3.89E-03
67.746	-1.96E-03
67.78	6.08E-03
67.814	5.34E-03
67.848	1.12E-02
67.882	1.19E-02
67.916	6.79E-03
67.95	1.56E-02
67.984	8.97E-03
68.018	6.77E-03
68.052	1.85E-04
68.086	4.57E-03
68.12	1.04E-02
68.154	1.77E-02
68.188	1.04E-02
68.222	4.55E-03
68.256	-2.76E-03
68.29	6.01E-03
68.324	1.92E-02
68.358	1.19E-02
68.392	1.55E-02
68.426	1.48E-02
68.46	8.72E-04
68.494	-2.06E-03
68.528	1.33E-02
68.562	1.77E-02
68.596	9.64E-03
68.63	5.25E-03
68.664	-1.34E-03
68.698	8.17E-03
68.732	9.63E-03
68.766	1.18E-02
68.8	5.24E-03
68.834	2.31E-03
68.868	6.69E-03
68.902	1.40E-02
68.936	5.96E-03
68.97	1.47E-02
69.004	2.30E-03
69.038	2.30E-03
69.072	5.22E-03
69.106	7.41E-03
69.14	6.68E-03
69.174	8.14E-03
69.208	8.14E-03
69.242	1.91E-02
69.276	1.56E-03
69.31	-6.39E-04
69.344	1.11E-02
69.378	8.21E-04
69.412	4.48E-03
69.446	3.75E-03
69.48	5.21E-03
69.514	4.48E-03
69.548	2.28E-03
69.582	8.13E-03
69.616	3.74E-03
69.65	5.94E-03
69.684	7.40E-03
69.718	-6.48E-04
69.752	8.13E-03
69.786	8.14E-04
69.82	8.13E-03
69.854	-6.49E-04
69.888	-4.31E-03
69.922	7.40E-03
69.956	8.13E-03
69.99	8.22E-05