File: .ipynb_checkpoints/188_XRD-checkpoint.txt
25.0080	1.2836e-02
25.0420	-6.1744e-03
25.0760	-3.2429e-03
25.1100	4.8053e-03
25.1440	4.8052e-03
25.1780	-2.3719e-02
25.2120	-1.2755e-02
25.2460	2.3077e-02
25.2800	-1.2771e-02
25.3140	-1.0824e-03
25.3480	-3.2906e-03
25.3820	1.6437e-02
25.4160	1.4954e-02
25.4500	8.3450e-03
25.4840	4.6604e-03
25.5180	-4.1480e-03
25.5520	-2.3199e-02
25.5860	-5.6840e-03
25.6200	-4.9959e-03
25.6540	1.5417e-03
25.6880	4.4155e-03
25.7220	7.0593e-04
25.7560	-1.3982e-02
25.7900	-1.9163e-02
25.8240	-2.4110e-03
25.8580	-1.6378e-02
25.8920	1.1336e-02
25.9260	2.8332e-04
25.9600	-1.2684e-03
25.9940	1.3267e-02
26.0280	-1.4605e-03
26.0620	-3.9598e-02
26.0960	-6.7956e-03
26.1300	-3.3238e-04
26.1640	-2.0934e-02
26.1980	-7.9014e-03
26.2320	-1.5354e-02
26.2660	1.7415e-02
26.3000	1.6528e-02
26.3340	-2.4592e-02
26.3680	4.3259e-02
26.4020	4.3147e-03
26.4360	-4.6493e-03
26.4700	-2.3861e-02
26.5040	5.1860e-03
26.5380	5.7003e-03
26.5720	2.8879e-02
26.6060	1.5796e-03
26.6400	2.0345e-02
26.6740	2.5312e-03
26.7080	-1.0906e-02
26.7420	-9.4923e-04
26.7760	-6.3658e-03
26.8100	-8.2481e-04
26.8440	-1.0655e-02
26.8780	1.3877e-02
26.9120	2.7426e-02
26.9460	3.2351e-06
26.9800	-1.7193e-02
27.0140	3.8006e-02
27.0480	1.0545e-02
27.0820	-3.0327e-03
27.1160	8.2445e-03
27.1500	3.1213e-02
27.1840	2.4914e-02
27.2180	-4.0683e-03
27.2520	-1.1850e-02
27.2860	-6.2342e-04
27.3200	1.4252e-02
27.3540	-5.2549e-03
27.3880	1.5626e-03
27.4220	1.2032e-02
27.4560	4.9450e-03
27.4900	-3.6077e-03
27.5240	-7.0423e-03
27.5580	7.0758e-03
27.5920	1.5343e-02
27.6260	7.5209e-03
27.6600	1.0671e-02
27.6940	-1.5347e-03
27.7280	2.8683e-02
27.7620	2.0141e-02
27.7960	1.3643e-03
27.8300	4.5340e-03
27.8640	6.2459e-03
27.8980	4.1607e-02
27.9320	3.8341e-03
27.9660	1.7266e-02
28.0000	2.8509e-02
28.0340	2.2205e-02
28.0680	3.5654e-02
28.1020	2.4974e-02
28.1360	5.8916e-02
28.1700	8.3355e-02
28.2040	5.0020e-02
28.2380	7.6668e-02
28.2720	7.4795e-02
28.3060	1.1023e-01
28.3400	9.5937e-02
28.3740	7.6529e-02
28.4080	7.2487e-02
28.4420	8.8930e-02
28.4760	6.8807e-02
28.5100	9.9159e-02
28.5440	7.1734e-02
28.5780	6.6989e-02
28.6120	4.8352e-02
28.6460	3.1914e-02
28.6800	4.5468e-02
28.7140	3.2696e-02
28.7480	2.7245e-02
28.7820	4.8858e-02
28.8160	1.4161e-02
28.8500	1.3109e-02
28.8840	1.2065e-02
28.9180	3.7078e-03
28.9520	5.4601e-02
28.9860	1.9191e-02
29.0200	5.7291e-03
29.0540	1.4943e-02
29.0880	-7.0644e-04
29.1220	2.2412e-02
29.1560	2.2860e-02
29.1900	2.6970e-02
29.2240	8.4075e-03
29.2580	2.1303e-02
29.2920	1.5182e-02
29.3260	1.7842e-02
29.3600	2.5625e-02
29.3940	6.3485e-03
29.4280	1.7796e-02
29.4620	1.1691e-02
29.4960	1.6561e-02
29.5300	3.8804e-03
29.5640	3.2158e-02
29.5980	1.1440e-02
29.6320	1.3394e-02
29.6660	-7.3890e-04
29.7000	1.2194e-02
29.7340	2.6589e-02
29.7680	-1.3134e-02
29.8020	3.4181e-02
29.8360	3.1099e-04
29.8700	2.4227e-02
29.9040	1.8157e-02
29.9380	1.7207e-02
29.9720	-1.1530e-02
30.0060	2.7022e-02
30.0400	8.5248e-03
30.0740	2.0021e-02
30.1080	5.9188e-03
30.1420	4.0088e-02
30.1760	1.8678e-02
30.2100	4.0420e-02
30.2440	5.1137e-03
30.2780	1.0039e-02
30.3120	2.8861e-02
30.3460	2.2817e-02
30.3800	1.7507e-02
30.4140	2.8290e-02
30.4480	1.4206e-02
30.4820	2.8648e-02
30.5160	3.3586e-02
30.5500	3.4868e-02
30.5840	2.3715e-02
30.6180	1.2569e-02
30.6520	2.4828e-02
30.6860	2.0996e-02
30.7200	1.7899e-02
30.7540	2.4313e-02
30.7880	3.2189e-02
30.8220	2.3245e-02
30.8560	1.2842e-02
30.8900	2.9501e-02
30.9240	3.3726e-02
30.9580	2.4791e-02
30.9920	2.0976e-02
31.0260	3.1789e-02
31.0600	3.7486e-02
31.0940	3.4407e-02
31.1280	3.5716e-02
31.1620	3.9222e-02
31.1960	6.9792e-02
31.2300	4.5507e-02
31.2640	5.2673e-02
31.2980	3.9363e-02
31.3320	5.7503e-02
31.3660	6.5403e-02
31.4000	5.5022e-02
31.4340	2.7819e-02
31.4680	3.7186e-02
31.5020	2.8270e-02
31.5360	2.5938e-02
31.5700	2.2142e-02
31.6040	1.0303e-02
31.6380	1.7481e-02
31.6720	2.2465e-02
31.7060	1.5016e-02
31.7400	3.2436e-02
31.7740	2.1331e-02
31.8080	1.9004e-02
31.8420	1.0095e-02
31.8760	2.3859e-02
31.9100	-4.0929e-04
31.9440	1.9938e-02
31.9780	3.5166e-02
32.0120	2.0407e-02
32.0460	2.1739e-02
32.0800	6.2495e-03
32.1140	2.2209e-02
32.1480	-4.2514e-03
32.1820	-8.7705e-03
32.2160	2.4743e-02
32.2500	2.0223e-02
32.2840	2.1555e-02
32.3180	1.1184e-02
32.3520	1.5438e-03
32.3860	2.6279e-02
32.4200	1.8101e-02
32.4540	1.6505e-02
32.4880	1.0520e-02
32.5220	1.9163e-02
32.5560	2.1221e-02
32.5900	2.8399e-02
32.6240	1.2172e-02
32.6580	2.5199e-02
32.6920	3.3105e-02
32.7260	1.6876e-02
32.7600	2.7705e-02
32.7940	2.6953e-03
32.8280	6.6915e-02
32.8620	2.5080e-02
32.8960	5.4921e-02
32.9300	3.4296e-02
32.9640	5.1699e-02
32.9980	4.4966e-02
33.0320	3.6769e-02
33.0660	3.8808e-02
33.1000	3.6458e-02
33.1340	3.8495e-02
33.1680	2.0049e-02
33.2020	1.9888e-02
33.2360	2.5575e-02
33.2700	2.3213e-02
33.3040	2.4509e-02
33.3380	3.6771e-02
33.3720	4.4150e-03
33.4060	2.6914e-02
33.4400	2.8928e-02
33.4740	2.4357e-02
33.5080	3.6609e-02
33.5420	1.3015e-02
33.5760	1.9407e-02
33.6100	1.6290e-02
33.6440	3.9496e-02
33.6780	2.3206e-02
33.7120	9.1072e-03
33.7460	3.2303e-02
33.7800	4.4528e-02
33.8140	1.4327e-02
33.8480	2.9467e-02
33.8820	1.5352e-02
33.9160	2.6095e-02
33.9500	2.5134e-02
33.9840	1.4664e-02
34.0180	1.9543e-02
34.0520	9.7930e-03
34.0860	2.0519e-02
34.1200	2.8310e-02
34.1540	1.9280e-02
34.1880	1.9019e-02
34.2220	2.4603e-02
34.2560	2.5068e-02
34.2900	2.2595e-02
34.3240	1.5000e-02
34.3580	2.2031e-02
34.3920	2.3199e-02
34.4260	1.7053e-02
34.4600	1.4556e-02
34.4940	1.8121e-03
34.5280	2.0518e-02
34.5620	2.6777e-02
34.5960	1.1092e-02
34.6300	3.7824e-02
34.6640	2.2122e-02
34.6980	1.5928e-02
34.7320	8.9935e-03
34.7660	3.2037e-02
34.8000	9.5829e-04
34.8340	2.0329e-02
34.8680	3.3847e-02
34.9020	1.4447e-02
34.9360	2.9408e-02
34.9700	2.8279e-02
35.0040	3.5914e-02
35.0380	2.3062e-02
35.0720	3.3614e-02
35.1060	1.4160e-02
35.1400	1.4453e-02
35.1740	3.8872e-02
35.2080	3.4755e-02
35.2420	1.7473e-02
35.2760	2.5770e-02
35.3100	2.3094e-02
35.3440	1.1633e-02
35.3780	3.0875e-02
35.4120	3.3296e-02
35.4460	2.3264e-02
35.4800	1.9078e-02
35.5140	2.3662e-02
35.5480	1.7258e-02
35.5820	3.1332e-02
35.6160	1.9057e-02
35.6500	2.2135e-02
35.6840	2.5938e-02
35.7180	1.8019e-02
35.7520	1.4488e-02
35.7860	1.1669e-02
35.8200	-4.3225e-03
35.8540	1.2592e-02
35.8880	9.0059e-03
35.9220	1.2734e-02
35.9560	1.7171e-02
35.9900	1.4288e-02
36.0240	9.9335e-03
36.0580	2.8231e-02
36.0920	9.2272e-03
36.1260	1.8723e-02
36.1600	1.0659e-02
36.1940	1.2824e-02
36.2280	1.2775e-02
36.2620	2.8085e-02
36.2960	2.6543e-02
36.3300	2.5730e-02
36.3640	2.6363e-02
36.3980	1.1621e-02
36.4320	2.4669e-02
36.4660	2.8177e-02
36.5000	2.6566e-02
36.5340	1.8349e-02
36.5680	1.0852e-02
36.6020	2.1631e-02
36.6360	3.4577e-02
36.6700	1.4611e-02
36.7040	1.8018e-02
36.7380	3.8242e-02
36.7720	2.7730e-02
36.8060	2.1586e-02
36.8400	1.8364e-02
36.8740	1.4377e-02
36.9080	1.4778e-02
36.9420	4.9111e-03
36.9760	1.3318e-02
37.0100	4.1578e-03
37.0440	2.4959e-02
37.0780	5.5333e-03
37.1120	6.9495e-04
37.1460	1.9261e-02
37.1800	1.0007e-02
37.2140	2.4144e-02
37.2480	1.3400e-02
37.2820	1.4329e-02
37.3160	1.1600e-02
37.3500	1.0293e-02
37.3840	4.5964e-03
37.4180	1.2768e-02
37.4520	2.6386e-03
37.4860	1.3705e-02
37.5200	1.3040e-02
37.5540	1.6762e-02
37.5880	8.0049e-03
37.6220	1.3876e-02
37.6560	2.1909e-02
37.6900	1.3837e-02
37.7240	6.4779e-03
37.7580	1.0792e-02
37.7920	1.5834e-02
37.8260	4.7408e-03
37.8600	1.3395e-02
37.8940	1.4697e-02
37.9280	1.7452e-02
37.9620	3.1152e-02
37.9960	3.4589e-02
38.0300	3.8014e-02
38.0640	5.8222e-02
38.0980	5.4294e-02
38.1320	9.0544e-02
38.1660	9.2416e-02
38.2000	1.2717e-01
38.2340	1.3411e-01
38.2680	1.5053e-01
38.3020	1.7058e-01
38.3360	1.7966e-01
38.3700	1.9088e-01
38.4040	1.8674e-01
38.4380	1.9426e-01
38.4720	2.1932e-01
38.5060	1.8584e-01
38.5400	1.9037e-01
38.5740	1.7221e-01
38.6080	1.6571e-01
38.6420	1.5556e-01
38.6760	1.4315e-01
38.7100	1.1319e-01
38.7440	9.4890e-02
38.7780	7.1459e-02
38.8120	4.4335e-02
38.8460	4.5713e-02
38.8800	3.0979e-02
38.9140	2.0596e-02
38.9480	5.0861e-03
38.9820	2.0243e-02
39.0160	2.0041e-02
39.0500	1.5397e-02
39.0840	3.4334e-03
39.1180	2.7268e-02
39.1520	1.3475e-03
39.1860	1.4897e-02
39.2200	1.5976e-02
39.2540	1.4119e-02
39.2880	3.7080e-02
39.3220	3.2979e-02
39.3560	2.8818e-02
39.3900	3.7089e-02
39.4240	4.0925e-02
39.4580	3.5968e-02
39.4920	6.3918e-02
39.5260	4.4321e-02
39.5600	5.3993e-02
39.5940	5.4185e-02
39.6280	6.5356e-02
39.6620	5.9741e-02
39.6960	8.9241e-02
39.7300	1.0196e-01
39.7640	1.0006e-01
39.7980	1.1209e-01
39.8320	1.1391e-01
39.8660	1.2234e-01
39.9000	1.4910e-01
39.9340	1.4515e-01
39.9680	1.3249e-01
40.0020	1.4837e-01
40.0360	1.4675e-01
40.0700	1.4225e-01
40.1040	1.5680e-01
40.1380	1.5899e-01
40.1720	1.4220e-01
40.2060	1.4303e-01
40.2400	1.7465e-01
40.2740	1.4856e-01
40.3080	1.3644e-01
40.3420	1.6755e-01
40.3760	1.2635e-01
40.4100	1.1305e-01
40.4440	1.1742e-01
40.4780	9.7041e-02
40.5120	1.0313e-01
40.5460	7.3528e-02
40.5800	9.8219e-02
40.6140	6.5318e-02
40.6480	6.1147e-02
40.6820	6.4551e-02
40.7160	4.0425e-02
40.7500	3.5598e-02
40.7840	3.5512e-02
40.8180	7.9936e-03
40.8520	1.6001e-02
40.8860	1.0531e-02
40.9200	-9.8233e-03
40.9540	3.0993e-02
40.9880	5.6972e-04
41.0220	-1.9222e-02
41.0560	-1.9679e-02
41.0900	-1.1865e-02
41.1240	-1.3433e-02
41.1580	-1.4235e-02
41.1920	-1.4355e-02
41.2260	-1.3849e-02
41.2600	-1.1293e-02
41.2940	-2.2814e-02
41.3280	-7.4537e-03
41.3620	-1.7876e-03
41.3960	-6.5666e-03
41.4300	7.4930e-03
41.4640	1.8453e-02
41.4980	5.1090e-03
41.5320	2.6710e-02
41.5660	1.3052e-02
41.6000	5.4104e-02
41.6340	9.2095e-02
41.6680	1.1533e-01
41.7020	3.4690e-01
41.7360	4.5710e+00
41.7700	6.8280e+01
41.8040	1.1040e+02
41.8380	1.1252e+01
41.8720	3.9074e-01
41.9060	3.4673e-01
41.9400	2.0973e-01
41.9740	8.2176e-02
42.0080	3.8674e-02
42.0420	2.4328e-02
42.0760	3.9197e-02
42.1100	2.9859e-02
42.1440	1.5338e-02
42.1780	1.7602e-02
42.2120	3.1482e-02
42.2460	2.1209e-02
42.2800	1.0119e-02
42.3140	1.9369e-03
42.3480	5.3860e-03
42.3820	1.6859e-02
42.4160	2.1685e-02
42.4500	1.5522e-02
42.4840	9.2947e-03
42.5180	1.3298e-02
42.5520	1.2111e-02
42.5860	1.8237e-02
42.6200	5.2770e-03
42.6540	2.1566e-02
42.6880	2.8300e-02
42.7220	2.0379e-02
42.7560	3.5111e-02
42.7900	1.7612e-02
42.8240	1.4740e-02
42.8580	3.7408e-02
42.8920	6.6756e-03
42.9260	1.6147e-02
42.9600	2.7038e-02
42.9940	6.4784e-03
43.0280	3.0488e-02
43.0620	1.0597e-02
43.0960	1.1183e-02
43.1300	1.3172e-02
43.1640	7.8476e-03
43.1980	2.1526e-02
43.2320	1.9068e-02
43.2660	1.5147e-02
43.3000	2.6566e-02
43.3340	1.2349e-02
43.3680	2.0073e-02
43.4020	1.9734e-02
43.4360	1.3507e-02
43.4700	7.2800e-03
43.5040	2.3713e-02
43.5380	2.3284e-02
43.5720	3.1078e-03
43.6060	1.1453e-02
43.6400	2.6332e-02
43.6740	1.1224e-02
43.7080	1.2207e-02
43.7420	1.4615e-02
43.7760	-2.7365e-03
43.8100	2.8915e-02
43.8440	1.6666e-02
43.8780	-7.3283e-04
43.9120	2.7946e-02
43.9460	6.1587e-03
43.9800	2.6021e-02
44.0140	1.4427e-02
44.0480	6.3875e-04
44.0820	2.1215e-02
44.1160	7.3820e-03
44.1500	9.6401e-03
44.1840	8.9727e-03
44.2180	9.0134e-03
44.2520	1.5617e-02
44.2860	-1.9157e-03
44.3200	2.0047e-02
44.3540	1.4202e-02
44.3880	1.1277e-02
44.4220	2.2980e-02
44.4560	1.4935e-02
44.4900	2.2250e-02
44.5240	6.8916e-03
44.5580	1.2744e-02
44.5920	3.9683e-03
44.6260	1.7135e-02
44.6600	8.3604e-03
44.6940	-4.1438e-04
44.7280	1.4215e-02
44.7620	1.6412e-02
44.7960	2.3729e-02
44.8300	9.1036e-03
44.8640	1.0569e-02
44.8980	2.5274e-03
44.9320	2.0084e-02
44.9660	2.4476e-02
45.0000	2.0823e-02
45.0340	6.1990e-03
45.0680	1.1323e-02
45.1020	1.5715e-02
45.1360	6.9433e-03
45.1700	1.1336e-02
45.2040	5.4902e-03
45.2380	1.7929e-02
45.2720	1.6472e-02
45.3060	1.4283e-02
45.3400	1.2094e-02
45.3740	1.5026e-02
45.4080	9.1808e-03
45.4420	1.2113e-02
45.4760	-1.0461e-03
45.5100	4.0804e-03
45.5440	1.9447e-02
45.5780	-3.9510e-03
45.6120	8.4897e-03
45.6460	-4.6677e-03
45.6800	1.6550e-02
45.7140	-5.3838e-03
45.7480	4.8637e-03
45.7820	-5.3674e-03
45.8160	7.8060e-03
45.8500	4.1574e-03
45.8840	1.2943e-02
45.9180	7.1009e-03
45.9520	1.0767e-02
45.9860	1.1507e-02
46.0200	5.6660e-03
46.0540	7.8699e-03
46.0880	8.6110e-03
46.1220	1.3741e-02
46.1560	6.4373e-03
46.1900	5.7162e-03
46.2240	1.3772e-02
46.2580	1.8171e-02
46.2920	-1.5653e-03
46.3260	1.8193e-02
46.3600	1.3816e-02
46.3940	8.7082e-03
46.4280	5.7943e-03
46.4620	8.0001e-03
46.4960	2.0446e-02
46.5300	2.1921e-02
46.5640	2.3396e-02
46.5980	7.3181e-03
46.6320	-4.3713e-03
46.6660	5.8811e-03
46.7000	9.5509e-03
46.7340	1.3953e-02
46.7680	1.0309e-02
46.8020	1.5442e-02
46.8360	1.6188e-02
46.8700	1.7665e-02
46.9040	2.2798e-02
46.9380	2.3544e-02
46.9720	1.5513e-02
47.0060	2.8693e-02
47.0400	2.6513e-02
47.0740	2.5797e-02
47.1080	2.8738e-02
47.1420	3.1678e-02
47.1760	3.6082e-02
47.2100	3.5366e-02
47.2440	3.9770e-02
47.2780	3.8323e-02
47.3120	4.7848e-02
47.3460	5.2252e-02
47.3800	4.2029e-02
47.4140	4.1314e-02
47.4480	4.1331e-02
47.4820	2.9645e-02
47.5160	2.7468e-02
47.5500	2.3097e-02
47.5840	3.0428e-02
47.6180	2.5326e-02
47.6520	2.0224e-02
47.6860	1.2196e-02
47.7200	1.3676e-02
47.7540	1.8814e-02
47.7880	4.9359e-03
47.8220	9.3424e-03
47.8560	2.1794e-02
47.8900	1.8156e-02
47.9240	2.8154e-03
47.9580	1.2342e-02
47.9920	1.2361e-02
48.0260	1.1649e-02
48.0600	1.6056e-02
48.0940	8.7615e-03
48.1280	-7.2717e-04
48.1620	9.5318e-03
48.1960	6.6258e-03
48.2300	2.2573e-03
48.2640	4.4713e-03
48.2980	1.0342e-02
48.3320	5.2427e-03
48.3660	9.6513e-03
48.4000	6.7459e-03
48.4340	9.6919e-03
48.4680	2.0441e-04
48.5020	2.4191e-03
48.5360	1.5605e-02
48.5700	2.0746e-02
48.6040	3.2130e-03
48.6380	3.9654e-03
48.6720	-3.3273e-03
48.7060	1.2784e-02
48.7400	1.5731e-02
48.7740	4.7819e-03
48.8080	-8.3617e-03
48.8420	1.0676e-02
48.8760	1.5086e-02
48.9100	1.2914e-02
48.9440	4.1587e-03
48.9780	3.4492e-03
49.0120	5.6654e-03
49.0460	-9.6718e-03
49.0800	-8.7308e-04
49.1140	6.4631e-03
49.1480	7.2167e-03
49.1820	9.4332e-03
49.2160	2.6278e-02
49.2500	6.5525e-03
49.2840	5.1122e-03
49.3180	3.6720e-03
49.3520	1.1740e-02
49.3860	5.1801e-03
49.4200	-6.4835e-04
49.4540	3.0314e-03
49.4880	1.2562e-02
49.5220	7.4654e-03
49.5560	7.4884e-03
49.5900	9.2882e-04
49.6240	1.1923e-02
49.6580	1.2677e-02
49.6920	1.3432e-02
49.7260	1.7524e-03
49.7600	5.4325e-03
49.7940	3.2615e-03
49.8280	1.0599e-02
49.8620	4.7707e-03
49.8960	-1.7886e-03
49.9300	4.8172e-03
49.9640	6.3033e-03
49.9980	5.5952e-03
50.0320	4.8871e-03
50.0660	1.0762e-02
50.1000	6.3966e-03
50.1340	4.9571e-03
50.1680	5.9210e-04
50.2020	1.2318e-02
50.2360	2.1016e-03
50.2700	3.5877e-03
50.3040	8.7308e-03
50.3380	7.2914e-03
50.3720	-2.1934e-03
50.4060	-8.7526e-03
50.4400	5.8985e-03
50.4740	1.2504e-02
50.5080	-3.5630e-03
50.5420	8.1626e-03
50.5760	1.1843e-02
50.6100	1.6265e-03
50.6440	1.1158e-02
50.6780	1.1912e-02
50.7120	2.4274e-03
50.7460	7.5702e-03
50.7800	4.6677e-03
50.8140	-6.2801e-03
50.8480	-3.3315e-03
50.8820	1.0798e-03
50.9160	1.2074e-02
50.9500	7.7081e-03
50.9840	6.2681e-03
51.0180	4.8281e-03
51.0520	1.5090e-02
51.0860	-6.0974e-03
51.1200	-3.1492e-03
51.1540	1.0770e-02
51.1880	5.5286e-04
51.2220	8.6206e-03
51.2560	1.0837e-02
51.2900	1.2322e-02
51.3240	5.0306e-03
51.3580	1.3098e-02
51.3920	-4.4827e-05
51.4260	2.0456e-02
51.4600	5.1190e-03
51.4940	7.3350e-03
51.5280	7.7424e-04
51.5620	-1.3982e-03
51.5960	4.4746e-03
51.6300	8.8845e-03
51.6640	4.5176e-03
51.6980	3.8077e-03
51.7320	6.7545e-03
51.7660	1.2627e-02
51.8000	8.2597e-03
51.8340	1.6326e-02
51.8680	6.1073e-03
51.9020	-4.5430e-04
51.9360	-9.9417e-03
51.9700	1.7811e-03
52.0040	-3.3180e-03
52.0380	4.7477e-03
52.0720	6.9621e-03
52.1060	1.4296e-02
52.1400	-3.1141e-04
52.1740	2.6340e-03
52.2080	-5.3915e-03
52.2420	7.7934e-03
52.2760	1.2201e-02
52.3100	-3.1385e-03
52.3440	9.3147e-03
52.3780	1.1528e-02
52.4120	1.2279e-02
52.4460	2.7895e-03
52.4800	4.2712e-03
52.5140	1.5261e-02
52.5480	1.2354e-02
52.5820	1.0910e-02
52.6160	-3.7000e-03
52.6500	1.0215e-02
52.6840	6.5759e-03
52.7180	6.5938e-03
52.7520	1.1731e-02
52.7860	1.3212e-02
52.8200	1.3229e-02
52.8540	1.2515e-02
52.8880	8.8755e-03
52.9220	1.5475e-02
52.9560	1.7686e-02
52.9900	6.0008e-03
53.0240	3.0920e-03
53.0580	4.5713e-03
53.0920	1.1170e-02
53.1260	-1.9788e-03
53.1600	5.3513e-03
53.1940	2.0726e-02
53.2280	7.5769e-03
53.2620	6.1298e-03
53.2960	1.1996e-02
53.3300	8.3545e-03
53.3640	1.0564e-02
53.3980	7.6533e-03
53.4320	-1.1088e-03
53.4660	2.0116e-02
53.5000	6.2344e-03
53.5340	3.9740e-04
53.5680	6.2626e-03
53.6020	2.6024e-02
53.6360	-7.6060e-03
53.6700	1.9469e-02
53.7040	7.0487e-03
53.7380	1.3645e-02
53.7720	1.7315e-02
53.8060	1.0745e-02
53.8400	1.1489e-02
53.8740	2.1010e-02
53.9080	1.6634e-02
53.9420	9.3321e-03
53.9760	1.1539e-02
54.0100	-1.5208e-04
54.0440	2.0537e-03
54.0780	7.1851e-03
54.1120	5.0023e-03
54.1460	6.4761e-03
54.1800	1.0144e-02
54.2140	6.4980e-03
54.2480	5.7771e-03
54.2820	7.9816e-03
54.3160	7.9919e-03
54.3500	1.3122e-02
54.3840	2.1606e-03
54.4180	1.4604e-02
54.4520	2.0465e-02
54.4860	6.5775e-03
54.5200	2.4871e-02
54.5540	-2.1811e-03
54.5880	1.0261e-02
54.6220	5.8814e-03
54.6560	8.0840e-03
54.6900	8.0923e-03
54.7240	1.0294e-02
54.7580	1.1033e-02
54.7920	1.5331e-03
54.8260	4.4663e-03
54.8600	8.1302e-03
54.8940	1.3988e-02
54.9280	1.5458e-02
54.9620	1.4002e-02
54.9960	1.1083e-02
55.0300	1.8403e-02
55.0640	1.1827e-02
55.0980	1.4027e-02
55.1320	1.9152e-02
55.1660	2.1352e-02
55.2000	1.2581e-02
55.2340	2.2094e-02
55.2680	1.9904e-02
55.3020	1.0401e-02
55.3360	1.4063e-02
55.3700	-5.6113e-04
55.4040	1.4071e-02
55.4380	2.2120e-02
55.4720	1.4810e-02
55.5060	8.9623e-03
55.5400	2.2131e-02
55.5740	1.9940e-02
55.6080	1.0435e-02
55.6420	2.8722e-02
55.6760	2.2874e-02
55.7100	2.0682e-02
55.7440	6.0562e-03
55.7780	4.5954e-03
55.8120	2.5808e-02
55.8460	2.1421e-02
55.8800	2.2154e-02
55.9140	2.5080e-02
55.9480	3.8247e-02
55.9820	3.8248e-02
56.0160	4.2636e-02
56.0500	4.1905e-02
56.0840	4.0443e-02
56.1180	3.7518e-02
56.1520	3.5323e-02
56.1860	4.2637e-02
56.2200	4.4100e-02
56.2540	3.8249e-02
56.2880	3.8980e-02
56.3220	3.8981e-02
56.3560	4.1175e-02
56.3900	3.7518e-02
56.4240	4.0444e-02
56.4580	2.5084e-02
56.4920	1.7039e-02
56.5260	1.9234e-02
56.5600	3.4593e-02
56.5940	1.8502e-02
56.6280	1.6806e-03
56.6620	3.8982e-02
56.6960	1.4846e-02
56.7300	2.0697e-02
56.7640	1.0458e-02
56.7980	2.2892e-02
56.8320	1.5578e-02
56.8660	1.4847e-02
56.9000	1.9967e-02
56.9340	1.9236e-02
56.9680	2.5819e-02
57.0020	1.1923e-02
57.0360	2.3625e-02
57.0700	2.5089e-02
57.1040	1.4850e-02
57.1380	2.2895e-02
57.1720	1.8507e-02
57.2060	1.7776e-02
57.2400	1.7045e-02
57.2740	1.1195e-02
57.3080	1.4121e-02
57.3420	1.6315e-02
57.3760	1.4122e-02
57.4100	1.2660e-02
57.4440	8.2719e-03
57.4780	1.4855e-02
57.5120	1.8513e-02
57.5460	1.7050e-02
57.5800	2.3634e-02
57.6140	2.0709e-02
57.6480	1.9978e-02
57.6820	8.2767e-03
57.7160	2.4368e-02
57.7500	1.7786e-02
57.7840	1.7056e-02
57.8180	2.3639e-02
57.8520	1.0475e-02
57.8860	1.6327e-02
57.9200	1.6328e-02
57.9540	1.9255e-02
57.9880	1.7793e-02
58.0220	9.7489e-03
58.0560	2.0721e-02
58.0900	1.2677e-02
58.1240	2.2186e-02
58.1580	1.6336e-02
58.1920	1.1218e-02
58.2260	1.9996e-02
58.2600	2.5117e-02
58.2940	2.8776e-02
58.3280	1.6343e-02
58.3620	1.1957e-02
58.3960	1.9272e-02
58.4300	1.2691e-02
58.4640	2.2201e-02
58.4980	1.7815e-02
58.5320	2.4399e-02
58.5660	1.7819e-02
58.6000	3.5374e-02
58.6340	2.6599e-02
58.6680	2.9527e-02
58.7020	2.9529e-02
58.7360	3.9771e-02
58.7700	3.8311e-02
58.8040	4.7822e-02
58.8380	5.7332e-02
58.8720	4.9290e-02
58.9060	5.1487e-02
58.9400	5.6609e-02
58.9740	5.5881e-02
59.0080	6.6124e-02
59.0420	6.7590e-02
59.0760	7.3444e-02
59.1100	7.2716e-02
59.1440	5.5166e-02
59.1780	5.9558e-02
59.2120	5.6636e-02
59.2460	7.0536e-02
59.2800	6.9809e-02
59.3140	4.8602e-02
59.3480	5.3726e-02
59.3820	4.6416e-02
59.4160	4.1300e-02
59.4500	4.7887e-02
59.4840	3.3263e-02
59.5180	2.8147e-02
59.5520	2.4494e-02
59.5860	2.8154e-02
59.6200	1.8650e-02
59.6540	2.1579e-02
59.6880	2.7434e-02
59.7220	2.2318e-02
59.7560	1.7202e-02
59.7900	1.4279e-02
59.8240	1.6477e-02
59.8580	1.9405e-02
59.8920	2.0871e-02
59.9260	1.7217e-02
59.9600	2.0877e-02
59.9940	1.9417e-02
60.0280	1.2837e-02
60.0620	1.3571e-02
60.0960	1.3573e-02
60.1300	1.1382e-02
60.1640	9.1897e-03
60.1980	1.9431e-02
60.2320	2.5285e-02
60.2660	1.5047e-02
60.3000	1.3586e-02
60.3340	2.5291e-02
60.3680	2.5292e-02
60.4020	1.3592e-02
60.4360	4.8169e-03
60.4700	2.0909e-02
60.5040	8.4771e-03
60.5380	4.3335e-04
60.5720	1.3600e-02
60.6060	1.9452e-02
60.6400	2.3842e-02
60.6740	1.2141e-02
60.7080	1.4337e-02
60.7420	1.5069e-02
60.7760	1.4339e-02
60.8100	9.9519e-03
60.8440	9.9530e-03
60.8780	1.3611e-02
60.9120	1.8732e-02
60.9460	-1.0148e-03
60.9800	8.4943e-03
61.0140	6.3010e-03
61.0480	1.1422e-02
61.0820	1.2885e-02
61.1160	1.0692e-02
61.1500	7.0358e-03
61.1840	5.5738e-03
61.2180	1.7277e-02
61.2520	1.8009e-02
61.2860	1.2158e-02
61.3200	4.5688e-04
61.3540	1.9203e-03
61.3880	1.7280e-02
61.4220	1.6549e-02
61.4560	7.0418e-03
61.4900	1.1431e-02
61.5240	1.2163e-02
61.5580	4.1178e-03
61.5920	1.4358e-02
61.6260	-8.3149e-03
61.6600	-1.0006e-03
61.6940	1.1940e-03
61.7280	6.3142e-03
61.7620	7.7773e-03
61.7960	1.3629e-02
61.8300	4.1211e-03
61.8640	4.1214e-03
61.8980	1.2898e-02
61.9320	1.0705e-02
61.9660	2.6595e-03
62.0000	1.0705e-02
62.0340	3.3915e-03
62.0680	2.6603e-03
62.1020	9.9745e-03
62.1360	1.1437e-02
62.1700	4.8551e-03
62.2040	8.5122e-03
62.2380	4.1241e-03
62.2720	1.5826e-02
62.3060	1.2901e-02
62.3400	-9.9524e-04
62.3740	2.3872e-02
62.4080	9.9759e-03
62.4420	4.6786e-04
62.4760	7.0505e-03
62.5100	1.4364e-02
62.5440	9.9762e-03
62.5780	1.0708e-02
62.6120	-9.9461e-04
62.6460	1.2170e-02
62.6800	6.3193e-03
62.7140	7.7822e-03
62.7480	1.2170e-02
62.7820	1.4365e-02
62.8160	1.1439e-02
62.8500	-3.9204e-03
62.8840	8.5130e-03
62.9180	7.7814e-03
62.9520	5.5870e-03
62.9860	4.8553e-03
63.0200	1.2169e-02
63.0540	1.5094e-02
63.0880	6.3168e-03
63.1220	4.6512e-04
63.1560	1.1435e-02
63.1900	7.0464e-03
63.2240	1.6554e-02
63.2580	-5.3887e-03
63.2920	8.5069e-03
63.3260	1.2894e-02
63.3600	-4.6598e-03
63.3940	1.8012e-02
63.4280	1.2892e-02
63.4620	-3.2001e-03
63.4960	1.5083e-02
63.5300	2.0202e-02
63.5640	3.3787e-03
63.5980	2.6459e-03
63.6320	7.0328e-03
63.6660	7.0314e-03
63.7000	7.0298e-03
63.7340	-2.8580e-04
63.7680	1.5803e-02
63.8020	7.7561e-03
63.8360	7.0228e-03
63.8700	4.8267e-03
63.9040	7.7502e-03
63.9380	4.0911e-03
63.9720	9.9401e-03
64.0060	1.7983e-02
64.0400	7.7413e-03
64.0740	1.0664e-02
64.1080	8.4677e-03
64.1420	5.5395e-03
64.1760	1.8799e-03
64.2100	8.4595e-03
64.2440	1.4308e-02
64.2780	1.5768e-02
64.3120	-8.3716e-03
64.3460	6.9845e-03
64.3800	1.1369e-02
64.4140	6.2462e-03
64.4480	2.2333e-02
64.4820	5.5076e-03
64.5160	1.5012e-02
64.5500	1.0620e-02
64.5840	3.4020e-02
64.6180	3.1822e-02
64.6520	2.3041e-02
64.6860	1.7917e-02
64.7200	4.7469e-03
64.7540	1.6444e-02
64.7880	2.5216e-02
64.8220	1.7166e-02
64.8560	3.1057e-02
64.8900	1.5693e-02
64.9240	1.6418e-02
64.9580	3.0309e-02
64.9920	2.4452e-02
65.0260	2.0789e-02
65.0600	2.7366e-02
65.0940	3.2479e-02
65.1280	2.0039e-02
65.1620	3.2466e-02
65.1960	1.4905e-02
65.2300	2.3675e-02
65.2640	1.1234e-02
65.2980	1.9272e-02
65.3320	2.4384e-02
65.3660	7.5539e-03
65.4000	1.4860e-02
65.4340	2.4359e-02
65.4680	1.4111e-02
65.5020	1.1177e-02
65.5360	1.4825e-02
65.5700	1.4815e-02
65.6040	1.3343e-02
65.6380	4.5564e-03
65.6720	1.3323e-02
65.7060	1.5507e-02
65.7400	8.9138e-03
65.7740	2.2068e-02
65.8080	6.6979e-03
65.8420	1.1075e-02
65.8760	1.0332e-02
65.9100	1.5440e-02
65.9440	1.2503e-02
65.9780	7.3707e-03
66.0120	-6.8692e-04
66.0460	1.0271e-02
66.0800	1.4647e-02
66.1140	-2.1878e-03
66.1480	-1.4695e-03
66.1820	2.9058e-03
66.2160	5.0867e-03
66.2500	1.5313e-02
66.2840	7.2541e-03
66.3180	5.7778e-03
66.3520	1.0153e-02
66.3860	7.2136e-03
66.4200	1.5245e-02
66.4540	2.0669e-03
66.4880	1.0099e-02
66.5220	7.8913e-03
66.5560	1.1535e-02
66.5900	7.8650e-03
66.6240	1.0046e-02
66.6580	-9.3744e-04
66.6920	1.3678e-02
66.7260	1.3665e-02
66.7600	4.1450e-03
66.7940	6.3271e-03
66.8280	-6.1184e-03
66.8620	1.3618e-02
66.8960	1.9039e-03
66.9300	7.7439e-03
66.9640	4.0760e-03
66.9980	5.5281e-03
67.0320	-2.5276e-03
67.0660	1.8673e-02
67.1000	7.6917e-03
67.1340	4.0251e-03
67.1680	-4.7611e-03
67.2020	1.1320e-02
67.2360	6.1916e-03
67.2700	7.6456e-03
67.3040	-8.4536e-03
67.3380	1.2017e-02
67.3720	5.4265e-03
67.4060	5.4187e-03
67.4400	9.0679e-03
67.4740	-4.8359e-03
67.5080	-1.1862e-03
67.5420	1.1972e-02
67.5760	7.5766e-03
67.6100	9.0328e-03
67.6440	3.1752e-03
67.6780	6.8258e-03
67.7120	3.8942e-03
67.7460	-1.9629e-03
67.7800	6.0767e-03
67.8140	5.3397e-03
67.8480	1.1185e-02
67.8820	1.1912e-02
67.9160	6.7867e-03
67.9500	1.5558e-02
67.9840	8.9711e-03
68.0180	6.7723e-03
68.0520	1.8519e-04
68.0860	4.5692e-03
68.1200	1.0416e-02
68.1540	1.7726e-02
68.1880	1.0408e-02
68.2220	4.5529e-03
68.2560	-2.7647e-03
68.2900	6.0083e-03
68.3240	1.9170e-02
68.3580	1.1853e-02
68.3920	1.5506e-02
68.4260	1.4772e-02
68.4600	8.7207e-04
68.4940	-2.0564e-03
68.5280	1.3300e-02
68.5620	1.7685e-02
68.5960	9.6375e-03
68.6300	5.2466e-03
68.6640	-1.3385e-03
68.6980	8.1673e-03
68.7320	9.6277e-03
68.7660	1.1820e-02
68.8000	5.2350e-03
68.8340	2.3073e-03
68.8680	6.6937e-03
68.9020	1.4006e-02
68.9360	5.9585e-03
68.9700	1.4734e-02
69.0040	2.2982e-03
69.0380	2.2966e-03
69.0720	5.2206e-03
69.1060	7.4134e-03
69.1400	6.6805e-03
69.1740	8.1420e-03
69.2080	8.1408e-03
69.2420	1.9110e-02
69.2760	1.5559e-03
69.3100	-6.3932e-04
69.3440	1.1062e-02
69.3780	8.2144e-04
69.4120	4.4776e-03
69.4460	3.7454e-03
69.4800	5.2073e-03
69.5140	4.4752e-03
69.5480	2.2804e-03
69.5820	8.1309e-03
69.6160	3.7420e-03
69.6500	5.9357e-03
69.6840	7.3981e-03
69.7180	-6.4770e-04
69.7520	8.1286e-03
69.7860	8.1447e-04
69.8200	8.1281e-03
69.8540	-6.4884e-04
69.8880	-4.3059e-03
69.9220	7.3963e-03
69.9560	8.1276e-03
69.9900	8.2170e-05